build	date	time	subject	blockcode	blocknum	trialcode	trialnum	stimulusonset1	values.est_soa	values.est_soa2	values.est_soa3	values.est_soa4	values.est_soa5	values.img_num	values.img_file	values.soa	values.completion_code	response	latency	values.OLIFE_subscale_1_score	values.OLIFE_subscale_2_score	values.OLIFE_subscale_3_score	values.OLIFE_subscale_4_score
5.0.14.0	021821	09:29:45	1	calibration	3	calibration_instruction_page1	1	6	0	0	0	0	0	0		0		57	243	0	0	0	0
5.0.14.0	021821	09:29:45	1	calibration	3	calibration_instruction_page2	2	11	0	0	0	0	0	0		0		57	58	0	0	0	0
5.0.14.0	021821	09:29:45	1	calibration	3	calibration_operate	3	8	0	0	0	0	0	0		0		57	319	0	0	0	0
5.0.14.0	021821	09:29:45	1	practice_block1	4	rb1	2	0	0	0	0	0	0	2	40RandomDots.jpg	67		Strong Yes	15557	0	0	0	0
5.0.14.0	021821	09:29:45	1	practice_block1	4	rb2	2	0	0	0	0	0	0	2	40RandomDots.jpg	67		Yes	15557	0	0	0	0
5.0.14.0	021821	09:29:45	1	practice_block1	4	t1	2	0	0	0	0	0	0	2	40RandomDots.jpg	67		2	15557	0	0	0	0
5.0.14.0	021821	09:29:45	1	practice_block1	4	t2	2	0	0	0	0	0	0	2	40RandomDots.jpg	67			15557	0	0	0	0
5.0.14.0	021821	09:29:45	1	practice_block2	5	rb1	2	0	0	0	0	0	0	3	50RandomDots.jpg	133		Strong Yes	4964	0	0	0	0
5.0.14.0	021821	09:29:45	1	practice_block2	5	rb2	2	0	0	0	0	0	0	3	50RandomDots.jpg	133		Yes	4964	0	0	0	0
5.0.14.0	021821	09:29:45	1	practice_block2	5	t1	2	0	0	0	0	0	0	3	50RandomDots.jpg	133		3	4964	0	0	0	0
5.0.14.0	021821	09:29:45	1	practice_block2	5	t2	2	0	0	0	0	0	0	3	50RandomDots.jpg	133			4964	0	0	0	0
5.0.14.0	021821	09:29:45	1	practice_block3	6	rb1	2	0	0	500	500	500	500	1	11RandomDotsRamp.jpg	133		Strong Yes	6187	0	0	0	0
5.0.14.0	021821	09:29:45	1	practice_block3	6	rb2	2	0	0	500	500	500	500	1	11RandomDotsRamp.jpg	133		Strong Yes	6187	0	0	0	0
5.0.14.0	021821	09:29:45	1	practice_block3	6	t1	2	0	0	500	500	500	500	1	11RandomDotsRamp.jpg	133		10	6187	0	0	0	0
5.0.14.0	021821	09:29:45	1	practice_block3	6	t2	2	0	0	500	500	500	500	1	11RandomDotsRamp.jpg	133			6187	0	0	0	0
5.0.14.0	021821	09:29:45	1	block1	7	brief	1	0	0	500	500	500	500	1	11RandomDotsRamp.jpg	133		0	500	0	0	0	0
5.0.14.0	021821	09:29:45	1	block1	7	rb1	2	0	0	500	500	500	500	1	11RandomDotsRamp.jpg	133		Strong Yes	5258	0	0	0	0
5.0.14.0	021821	09:29:45	1	block1	7	rb2	2	0	0	500	500	500	500	1	11RandomDotsRamp.jpg	133		Yes	5258	0	0	0	0
5.0.14.0	021821	09:29:45	1	block1	7	t1	2	0	0	500	500	500	500	1	11RandomDotsRamp.jpg	133		70	5258	0	0	0	0
5.0.14.0	021821	09:29:45	1	block1	7	t2	2	0	0	500	500	500	500	1	11RandomDotsRamp.jpg	133			5258	0	0	0	0
5.0.14.0	021821	09:29:45	1	block1	7	brief	3	10	0	500	500	500	500	1	11RandomDotsRamp.jpg	133		0	500	0	0	0	0
5.0.14.0	021821	09:29:45	1	block1	7	rb1	4	0	0	500	500	500	500	1	11RandomDotsRamp.jpg	133		Strong Yes	5079	0	0	0	0
5.0.14.0	021821	09:29:45	1	block1	7	rb2	4	0	0	500	500	500	500	1	11RandomDotsRamp.jpg	133		Yes	5079	0	0	0	0
5.0.14.0	021821	09:29:45	1	block1	7	t1	4	0	0	500	500	500	500	1	11RandomDotsRamp.jpg	133		50	5079	0	0	0	0
5.0.14.0	021821	09:29:45	1	block1	7	t2	4	0	0	500	500	500	500	1	11RandomDotsRamp.jpg	133			5079	0	0	0	0
5.0.14.0	021821	09:29:45	1	block2	8	speed	1	2	0	500	500	500	500	6	11RandomDotsRamp.jpg	133		0	500	0	0	0	0
5.0.14.0	021821	09:29:45	1	block2	8	rb1	2	0	0	500	500	500	500	6	11RandomDotsRamp.jpg	133		Strong Yes	9987	0	0	0	0
5.0.14.0	021821	09:29:45	1	block2	8	rb2	2	0	0	500	500	500	500	6	11RandomDotsRamp.jpg	133		Yes	9987	0	0	0	0
5.0.14.0	021821	09:29:45	1	block2	8	t1	2	0	0	500	500	500	500	6	11RandomDotsRamp.jpg	133		40	9987	0	0	0	0
5.0.14.0	021821	09:29:45	1	block2	8	t2	2	0	0	500	500	500	500	6	11RandomDotsRamp.jpg	133		speed	9987	0	0	0	0
5.0.14.0	021821	09:29:45	1	block2	8	speed	3	1	0	500	500	500	500	5	11RandomDotsRamp.jpg	133		0	500	0	0	0	0
5.0.14.0	021821	09:29:45	1	block2	8	rb1	4	0	0	500	500	500	500	5	11RandomDotsRamp.jpg	133		Strong Yes	18750	0	0	0	0
5.0.14.0	021821	09:29:45	1	block2	8	rb2	4	0	0	500	500	500	500	5	11RandomDotsRamp.jpg	133		Yes	18750	0	0	0	0
5.0.14.0	021821	09:29:45	1	block2	8	t1	4	0	0	500	500	500	500	5	11RandomDotsRamp.jpg	133		60	18750	0	0	0	0
5.0.14.0	021821	09:29:45	1	block2	8	t2	4	0	0	500	500	500	500	5	11RandomDotsRamp.jpg	133		toofast	18750	0	0	0	0
5.0.14.0	021821	09:29:45	1	block3	9	rampincrease	1	1	0	500	500	500	500	2	41RandomDotsRamp.jpg	133		0	500	0	0	0	0
5.0.14.0	021821	09:29:45	1	block3	9	rb1	2	0	0	500	500	500	500	2	41RandomDotsRamp.jpg	133		Yes	16872	0	0	0	0
5.0.14.0	021821	09:29:45	1	block3	9	rb2	2	0	0	500	500	500	500	2	41RandomDotsRamp.jpg	133		Yes	16872	0	0	0	0
5.0.14.0	021821	09:29:45	1	block3	9	t1	2	0	0	500	500	500	500	2	41RandomDotsRamp.jpg	133		40	16872	0	0	0	0
5.0.14.0	021821	09:29:45	1	block3	9	t2	2	0	0	500	500	500	500	2	41RandomDotsRamp.jpg	133		dotsincreasingone	16872	0	0	0	0
5.0.14.0	021821	09:29:45	1	block3	9	rampincrease	3	7	0	500	500	500	500	3	91RandomDotsRamp.jpg	133		0	500	0	0	0	0
5.0.14.0	021821	09:29:45	1	block3	9	rb1	4	0	0	500	500	500	500	3	91RandomDotsRamp.jpg	133		Strong Yes	14703	0	0	0	0
5.0.14.0	021821	09:29:45	1	block3	9	rb2	4	0	0	500	500	500	500	3	91RandomDotsRamp.jpg	133		Yes	14703	0	0	0	0
5.0.14.0	021821	09:29:45	1	block3	9	t1	4	0	0	500	500	500	500	3	91RandomDotsRamp.jpg	133		80	14703	0	0	0	0
5.0.14.0	021821	09:29:45	1	block3	9	t2	4	0	0	500	500	500	500	3	91RandomDotsRamp.jpg	133		dotsincreasingtwo	14703	0	0	0	0
5.0.14.0	021821	09:29:45	1	block3	9	rampincrease	5	6	0	500	500	500	500	1	11RandomDotsRamp.jpg	133		0	500	0	0	0	0
5.0.14.0	021821	09:29:45	1	block3	9	rb1	6	0	0	500	500	500	500	1	11RandomDotsRamp.jpg	133		Strong Yes	15578	0	0	0	0
5.0.14.0	021821	09:29:45	1	block3	9	rb2	6	0	0	500	500	500	500	1	11RandomDotsRamp.jpg	133		Yes	15578	0	0	0	0
5.0.14.0	021821	09:29:45	1	block3	9	t1	6	0	0	500	500	500	500	1	11RandomDotsRamp.jpg	133		15	15578	0	0	0	0
5.0.14.0	021821	09:29:45	1	block3	9	t2	6	0	0	500	500	500	500	1	11RandomDotsRamp.jpg	133		dotsincreasingthre	15578	0	0	0	0
5.0.14.0	021821	09:29:45	1	block4	10	rampdecrease	1	1	0	-500	-500	-500	-500	2	41RandomDotsRamp.jpg	133		0	500	0	0	0	0
5.0.14.0	021821	09:29:45	1	block4	10	rb1	2	0	0	-500	-500	-500	-500	2	41RandomDotsRamp.jpg	133		Strong Yes	13487	0	0	0	0
5.0.14.0	021821	09:29:45	1	block4	10	rb2	2	0	0	-500	-500	-500	-500	2	41RandomDotsRamp.jpg	133		Yes	13487	0	0	0	0
5.0.14.0	021821	09:29:45	1	block4	10	t1	2	0	0	-500	-500	-500	-500	2	41RandomDotsRamp.jpg	133		40	13487	0	0	0	0
5.0.14.0	021821	09:29:45	1	block4	10	t2	2	0	0	-500	-500	-500	-500	2	41RandomDotsRamp.jpg	133		decreaseone	13487	0	0	0	0
5.0.14.0	021821	09:29:45	1	block4	10	rampdecrease	3	6	0	-500	-500	-500	-500	3	91RandomDotsRamp.jpg	133		0	500	0	0	0	0
5.0.14.0	021821	09:29:45	1	block4	10	rb1	4	0	0	-500	-500	-500	-500	3	91RandomDotsRamp.jpg	133		Yes	10614	0	0	0	0
5.0.14.0	021821	09:29:45	1	block4	10	rb2	4	0	0	-500	-500	-500	-500	3	91RandomDotsRamp.jpg	133		Yes	10614	0	0	0	0
5.0.14.0	021821	09:29:45	1	block4	10	t1	4	0	0	-500	-500	-500	-500	3	91RandomDotsRamp.jpg	133		30	10614	0	0	0	0
5.0.14.0	021821	09:29:45	1	block4	10	t2	4	0	0	-500	-500	-500	-500	3	91RandomDotsRamp.jpg	133		decreasetwo	10614	0	0	0	0
5.0.14.0	021821	09:29:45	1	block4	10	rampdecrease	5	7	0	-500	-500	-500	-500	1	11RandomDotsRamp.jpg	133		0	500	0	0	0	0
5.0.14.0	021821	09:29:45	1	block4	10	rb1	6	0	0	-500	-500	-500	-500	1	11RandomDotsRamp.jpg	133		Strong Yes	11031	0	0	0	0
5.0.14.0	021821	09:29:45	1	block4	10	rb2	6	0	0	-500	-500	-500	-500	1	11RandomDotsRamp.jpg	133		Yes	11031	0	0	0	0
5.0.14.0	021821	09:29:45	1	block4	10	t1	6	0	0	-500	-500	-500	-500	1	11RandomDotsRamp.jpg	133		40	11031	0	0	0	0
5.0.14.0	021821	09:29:45	1	block4	10	t2	6	0	0	-500	-500	-500	-500	1	11RandomDotsRamp.jpg	133		decreasingthree	11031	0	0	0	0
5.0.14.0	021821	09:29:45	1	demographics	11	sex	1	0	0	-500	-500	-500	-500	1	11RandomDotsRamp.jpg	133		Male	26412	0	0	0	0
5.0.14.0	021821	09:29:45	1	demographics	11	age	1	0	0	-500	-500	-500	-500	1	11RandomDotsRamp.jpg	133		18-24 years old	26412	0	0	0	0
5.0.14.0	021821	09:29:45	1	demographics	11	nationality	1	0	0	-500	-500	-500	-500	1	11RandomDotsRamp.jpg	133		Japanese	26412	0	0	0	0
5.0.14.0	021821	09:29:45	1	demographics	11	education	1	0	0	-500	-500	-500	-500	1	11RandomDotsRamp.jpg	133		Less than a high school diploma	26412	0	0	0	0
5.0.14.0	021821	09:29:45	1	demographics	11	first_language	1	0	0	-500	-500	-500	-500	1	11RandomDotsRamp.jpg	133		Chinese	26412	0	0	0	0
5.0.14.0	021821	09:29:45	1	demographics	11	second_language	1	0	0	-500	-500	-500	-500	1	11RandomDotsRamp.jpg	133		English	26412	0	0	0	0
5.0.14.0	021821	09:29:45	1	demographics	11	number_of_years_english_speaking	1	0	0	-500	-500	-500	-500	1	11RandomDotsRamp.jpg	133		99	26412	0	0	0	0
5.0.14.0	021821	09:29:45	1	completion	12	mturk_completion_code	1	6	0	-500	-500	-500	-500	1	11RandomDotsRamp.jpg	133	82156	57	8146	0	0	0	0
