build	date	time	subject	blockcode	blocknum	trialcode	trialnum	stimulusonset1	values.est_soa	values.est_soa2	values.est_soa3	values.est_soa4	values.est_soa5	values.img_num	values.img_file	values.soa	values.completion_code	response	latency	values.OLIFE_subscale_1_score	values.OLIFE_subscale_2_score	values.OLIFE_subscale_3_score	values.OLIFE_subscale_4_score
5.0.14.0	013021	01:05:14	1	calibration	3	calibration_instruction_page1	1	7	0	0	0	0	0	0		0		57	364	0	0	0	0
5.0.14.0	013021	01:05:14	1	calibration	3	calibration_instruction_page2	2	12	0	0	0	0	0	0		0		57	2369	0	0	0	0
5.0.14.0	013021	01:05:14	1	calibration	3	calibration_operate	3	7	0	0	0	0	0	0		0		57	1090	0	0	0	0
5.0.14.0	013021	01:05:14	1	practice_block	4	practice_pic_133soa	1	0	134	66	50	67	50	3	50RandomDots.jpg	133		0	67	0	0	0	0
5.0.14.0	013021	01:05:14	1	practice_block	4	d1	2	0	134	66	50	67	50	3	50RandomDots.jpg	133		a	10798	0	0	0	0
5.0.14.0	013021	01:05:14	1	practice_block	4	d2	2	0	134	66	50	67	50	3	50RandomDots.jpg	133		a	10798	0	0	0	0
5.0.14.0	013021	01:05:14	1	practice_block	4	d3	2	0	134	66	50	67	50	3	50RandomDots.jpg	133		a	10798	0	0	0	0
5.0.14.0	013021	01:05:14	1	practice_block	4	d4	2	0	134	66	50	67	50	3	50RandomDots.jpg	133		a	10798	0	0	0	0
5.0.14.0	013021	01:05:14	1	practice_block	4	d5	2	0	134	66	50	67	50	3	50RandomDots.jpg	133		a	10798	0	0	0	0
5.0.14.0	013021	01:05:14	1	practice_block	4	rb1	2	0	134	66	50	67	50	3	50RandomDots.jpg	133		Don't Know	10798	0	0	0	0
5.0.14.0	013021	01:05:14	1	practice_block	4	rb2	2	0	134	66	50	67	50	3	50RandomDots.jpg	133		Don't Know	10798	0	0	0	0
5.0.14.0	013021	01:05:14	1	practice_block	4	rb3	2	0	134	66	50	67	50	3	50RandomDots.jpg	133		Don't Know	10798	0	0	0	0
5.0.14.0	013021	01:05:14	1	practice_block	4	rb4	2	0	134	66	50	67	50	3	50RandomDots.jpg	133		Don't Know	10798	0	0	0	0
5.0.14.0	013021	01:05:14	1	practice_block	4	rb5	2	0	134	66	50	67	50	3	50RandomDots.jpg	133		Don't Know	10798	0	0	0	0
5.0.14.0	013021	01:05:14	1	practice_block	4	practice_pic_133soa	3	0	134	66	50	67	50	1	30RandomDots.jpg	133		0	67	0	0	0	0
5.0.14.0	013021	01:05:14	1	practice_block	4	d1	4	0	134	66	50	67	50	1	30RandomDots.jpg	133			3678	0	0	0	0
5.0.14.0	013021	01:05:14	1	practice_block	4	d2	4	0	134	66	50	67	50	1	30RandomDots.jpg	133			3678	0	0	0	0
5.0.14.0	013021	01:05:14	1	practice_block	4	d3	4	0	134	66	50	67	50	1	30RandomDots.jpg	133			3678	0	0	0	0
5.0.14.0	013021	01:05:14	1	practice_block	4	d4	4	0	134	66	50	67	50	1	30RandomDots.jpg	133			3678	0	0	0	0
5.0.14.0	013021	01:05:14	1	practice_block	4	d5	4	0	134	66	50	67	50	1	30RandomDots.jpg	133			3678	0	0	0	0
5.0.14.0	013021	01:05:14	1	practice_block	4	rb1	4	0	134	66	50	67	50	1	30RandomDots.jpg	133			3678	0	0	0	0
5.0.14.0	013021	01:05:14	1	practice_block	4	rb2	4	0	134	66	50	67	50	1	30RandomDots.jpg	133			3678	0	0	0	0
5.0.14.0	013021	01:05:14	1	practice_block	4	rb3	4	0	134	66	50	67	50	1	30RandomDots.jpg	133			3678	0	0	0	0
5.0.14.0	013021	01:05:14	1	practice_block	4	rb4	4	0	134	66	50	67	50	1	30RandomDots.jpg	133			3678	0	0	0	0
5.0.14.0	013021	01:05:14	1	practice_block	4	rb5	4	0	134	66	50	67	50	1	30RandomDots.jpg	133			3678	0	0	0	0
