build	date	time	subject	blockcode	blocknum	trialcode	trialnum	stimulusonset1	values.est_soa	values.est_soa2	values.est_soa3	values.est_soa4	values.est_soa5	values.img_num	values.img_file	values.soa	values.completion_code	response	latency	values.OLIFE_subscale_1_score	values.OLIFE_subscale_2_score	values.OLIFE_subscale_3_score	values.OLIFE_subscale_4_score
5.0.14.0	021621	17:24:00	1	calibration	3	calibration_instruction_page1	1	8	0	0	0	0	0	0		0		57	286	0	0	0	0
5.0.14.0	021621	17:24:00	1	calibration	3	calibration_instruction_page2	2	11	0	0	0	0	0	0		0		57	170	0	0	0	0
5.0.14.0	021621	17:24:00	1	calibration	3	calibration_operate	3	7	0	0	0	0	0	0		0		57	170	0	0	0	0
5.0.14.0	021621	17:24:00	1	practice_block1	4	practice_brief	1	0	0	0	0	0	0	1	30RandomDots.jpg	67		0	500	0	0	0	0
5.0.14.0	021621	17:24:00	1	practice_block1	4	rb1	2	0	0	0	0	0	0	1	30RandomDots.jpg	67		Yes	5854	0	0	0	0
5.0.14.0	021621	17:24:00	1	practice_block1	4	rb2	2	0	0	0	0	0	0	1	30RandomDots.jpg	67		Yes	5854	0	0	0	0
5.0.14.0	021621	17:24:00	1	practice_block1	4	t1	2	0	0	0	0	0	0	1	30RandomDots.jpg	67		67	5854	0	0	0	0
5.0.14.0	021621	17:24:00	1	practice_block1	4	t2	2	0	0	0	0	0	0	1	30RandomDots.jpg	67			5854	0	0	0	0
5.0.14.0	021621	17:24:00	1	practice_block2	5	practice_speed	1	92	0	0	0	0	0	3	50RandomDots.jpg	133		0	500	0	0	0	0
5.0.14.0	021621	17:24:00	1	practice_block2	5	rb1	2	0	0	0	0	0	0	3	50RandomDots.jpg	133		Yes	4512	0	0	0	0
5.0.14.0	021621	17:24:00	1	practice_block2	5	rb2	2	0	0	0	0	0	0	3	50RandomDots.jpg	133		Yes	4512	0	0	0	0
5.0.14.0	021621	17:24:00	1	practice_block2	5	t1	2	0	0	0	0	0	0	3	50RandomDots.jpg	133		7	4512	0	0	0	0
5.0.14.0	021621	17:24:00	1	practice_block2	5	t2	2	0	0	0	0	0	0	3	50RandomDots.jpg	133			4512	0	0	0	0
5.0.14.0	021621	17:24:00	1	practice_block3	6	rb1	2	0	0	500	500	500	500	1	11RandomDotsRamp.jpg	133		Yes	4442	0	0	0	0
5.0.14.0	021621	17:24:00	1	practice_block3	6	rb2	2	0	0	500	500	500	500	1	11RandomDotsRamp.jpg	133		Yes	4442	0	0	0	0
5.0.14.0	021621	17:24:00	1	practice_block3	6	t1	2	0	0	500	500	500	500	1	11RandomDotsRamp.jpg	133		8	4442	0	0	0	0
5.0.14.0	021621	17:24:00	1	practice_block3	6	t2	2	0	0	500	500	500	500	1	11RandomDotsRamp.jpg	133			4442	0	0	0	0
5.0.14.0	021621	17:24:00	1	block1	7	brief	1	0	0	500	500	500	500	1	11RandomDotsRamp.jpg	133		0	500	0	0	0	0
5.0.14.0	021621	17:24:00	1	block1	7	rb1	2	0	0	500	500	500	500	1	11RandomDotsRamp.jpg	133			3969	0	0	0	0
5.0.14.0	021621	17:24:00	1	block1	7	rb2	2	0	0	500	500	500	500	1	11RandomDotsRamp.jpg	133			3969	0	0	0	0
5.0.14.0	021621	17:24:00	1	block1	7	t1	2	0	0	500	500	500	500	1	11RandomDotsRamp.jpg	133			3969	0	0	0	0
5.0.14.0	021621	17:24:00	1	block1	7	t2	2	0	0	500	500	500	500	1	11RandomDotsRamp.jpg	133			3969	0	0	0	0
